Folder: flight-analysis/27-3-2025/ulog2csv

Note: README.md
# flight-analysis
Scripts and documents for flight analysis.

File: log_198_2025-3-27-17-30-46_battery_status_0.csv
timestamp,voltage_v,voltage_filtered_v,current_a,current_filtered_a,current_average_a,discharged_mah,remaining,scale,time_remaining_s,temperature,voltage_cell_v[0],voltage_cell_v[1],voltage_cell_v[2],voltage_cell_v[3],voltage_cell_v[4],voltage_cell_v[5],voltage_cell_v[6],voltage_cell_v[7],voltage_cell_v[8],voltage_cell_v[9],voltage_cell_v[10],voltage_cell_v[11],voltage_cell_v[12],voltage_cell_v[13],max_cell_voltage_delta,custom_faults,average_power,available_energy,full_charge_capacity_wh,remaining_capacity_wh,design_capacity,nominal_voltage,capacity,cycle_count,average_time_to_empty,serial_number,manufacture_date,state_of_health,max_error,interface_error,faults,average_time_to_full,over_discharge_count,connected,cell_count,source,priority,id,is_powering_off,is_required,warning,mode
200035626,15.35937,15.3594,1.039375,1.04375,15.0,56.45663,0.627399,1.0533,nan,nan,0.0,0.0,0.0,0.0,0.0,0.0,0.0,0.0,0.0,0.0,0.0,0.0,0.0,0.0,0.0,0,0.0,0.0,0.0,0.0,0.0,0.0,0,0,0,0,0,0,0,0,0,0,0,1,4,0,0,1,0,0,0,0
203176881,15.3447,15.3467,1.51625,1.48928,14.1867,57.74135,0.6256953,1.05355,nan,nan,0.0,0.0,0.0,0.0,0.0,0.0,0.0,0.0,0.0,0.0,0.0,0.0,0.0,0.0,0.0,0,0.0,0.0,0.0,0.0,0.0,0.0,0,0,0,0,0,0,0,0,0,0,0,1,4,0,0,1,0,0,0,0
206824389,14.6158,14.7776,28.84375,27.1606,14.2312,73.30823,0.600381,1.05738,nan,nan,0.0,0.0,0.0,0.0,0.0,0.0,0.0,0.0,0.0,0.0,0.0,0.0,0.0,0.0,0.0,0,0.0,0.0,0.0,0.0,0.0,0.0,0,0,0,0,0,0,0,0,0,0,0,1,4,0,0,1,0,0,0,0
209967524,14.57157,14.5801,26.8194,27.5616,15.0797,98.0181,0.514226,1.07063,nan,nan,0.0,0.0,0.0,0.0,0.0,0.0,0.0,0.0,0.0,0.0,0.0,0.0,0.0,0.0,0.0,0,0.0,0.0,0.0,0.0,0.0,0.0,0,0,0,0,0,0,0,0,0,0,0,1,4,0,0,1,0,0,0,0
213614961,14.5176,14.5631,26.8094,25.8745,15.8145,124.039,0.491181,1.07423,nan,nan,0.0,0.0,0.0,0.0,0.0,0.0,0.0,0.0,0.0,0.0,0.0,0.0,0.0,0.0,0.0,0,0.0,0.0,0.0,0.0,0.0,0.0,0,0,0,0,0,0,0,0,0,0,0,1,4,0,0,1,0,0,0,0
216860335,14.3949,14.4734,30.5681,28.3513,16.4917,148.25,0.472935,1.077095,nan,nan,0.0,0.0,0.0,0.0,0.0,0.0,0.0,0.0,0.0,0.0,0.0,0.0,0.0,0.0,0.0,0,0.0,0.0,0.0,0.0,0.0,0.0,0,0,0,0,0,0,0,0,0,0,0,1,4,0,0,1,0,0,0,0
220000711,14.4481,14.4369,26.4775,26.7797,17.2306,173.275,0.4420324,1.08199,nan,nan,0.0,0.0,0.0,0.0,0.0,0.0,0.0,0.0,0.0,0.0,0.0,0.0,0.0,0.0,0.0,0,0.0,0.0,0.0,0.0,0.0,0.0,0,0,0,0,0,0,0,0,0,0,0,1,4,0,0,1,0,0,0,0
223445697,14.4259,14.4136,26.365,27.1764,17.9052,199.593,0.435071,1.08309,nan,nan,0.0,0.0,0.0,0.0,0.0,0.0,0.0,0.0,0.0,0.0,0.0,0.0,0.0,0.0,0.0,0,0.0,0.0,0.0,0.0,0.0,0.0,0,0,0,0,0,0,0,0,0,0,0,1,4,0,0,1,0,0,0,0
226586202,14.4037,14.3836,26.67,28.1638,18.498,223.824,0.430398,1.08384,nan,nan,0.0,0.0,0.0,0.0,0.0,0.0,0.0,0.0,0.0,0.0,0.0,0.0,0.0,0.0,0.0,0,0.0,0.0,0.0,0.0,0.0,0.0,0,0,0,0,0,0,0,0,0,0,0,1,4,0,0,1,0,0,0,0
230033845,14.5,14.3755,21.4644,26.7619,19.1453,250.848,0.413967,1.08647,nan,nan,0.0,0.0,0.0,0.0,0.0,0.0,0.0,0.0,0.0,0.0,0.0,0.0,0.0,0.0,0.0,0,0.0,0.0,0.0,0.0,0.0,0.0,0,0,0,0,0,0,0,0,0,0,0,1,4,0,0,1,0,0,0,0
233175333,14.36331,14.3876,27.5344,26.77124,19.566,273.8403,0.41954,1.08557,nan,nan,0.0,0.0,0.0,0.0,0.0,0.0,0.0,0.0,0.0,0.0,0.0,0.0,0.0,0.0,0.0,0,0.0,0.0,0.0,0.0,0.0,0.0,0,0,0,0,0,0,0,0,0,0,0,1,4,0,0,1,0,0,0,0
237025024,14.3097,14.3408,29.2669,28.0723,20.1954,304.014,0.410119,1.08708,nan,nan,0.0,0.0,0.0,0.0,0.0,0.0,0.0,0.0,0.0,0.0,0.0,0.0,0.0,0.0,0.0,0,0.0,0.0,0.0,0.0,0.0,0.0,0,0,0,0,0,0,0,0,0,0,0,1,4,0,0,1,0,0,0,0
240368914,14.33952,14.3763,27.9194,27.2426,20.5556,327.9763,0.4186998,1.085708,nan,nan,0.0,0.0,0.0,0.0,0.0,0.0,0.0,0.0,0.0,0.0,0.0,0.0,0.0,0.0,0.0,0,0.0,0.0,0.0,0.0,0.0,0.0,0,0,0,0,0,0,0,0,0,0,0,1,4,0,0,1,0,0,0,0
243813845,14.3421,14.3235,27.1569,28.439,21.0576,354.932,0.4055634,1.08781,nan,nan,0.0,0.0,0.0,0.0,0.0,0.0,0.0,0.0,0.0,0.0,0.0,0.0,0.0,0.0,0.0,0,0.0,0.0,0.0,0.0,0.0,0.0,0,0,0,0,0,0,0,0,0,0,0,1,4,0,0,1,0,0,0,0
247462337,14.3144,14.3354,28.38875,28.098,21.434,381.786,0.407878,1.08744,nan,nan,0.0,0.0,0.0,0.0,0.0,0.0,0.0,0.0,0.0,0.0,0.0,0.0,0.0,0.0,0.0,0,0.0,0.0,0.0,0.0,0.0,0.0,0,0,0,0,0,0,0,0,0,0,0,1,4,0,0,1,0,0,0,0
250806208,14.39568,14.3607,24.3825,25.1652,21.7993,406.921,0.392742,1.08988,nan,nan,0.0,0.0,0.0,0.0,0.0,0.0,0.0,0.0,0.0,0.0,0.0,0.0,0.0,0.0,0.0,0,0.0,0.0,0.0,0.0,0.0,0.0,0,0,0,0,0,0,0,0,0,0,0,1,4,0,0,1,0,0,0,0
254048744,14.3752,14.3995,25.4744,24.4351,21.9608,428.9444,0.403748,1.08811,nan,nan,0.0,0.0,0.0,0.0,0.0,0.0,0.0,0.0,0.0,0.0,0.0,0.0,0.0,0.0,0.0,0,0.0,0.0,0.0,0.0,0.0,0.0,0,0,0,0,0,0,0,0,0,0,0,1,4,0,0,1,0,0,0,0
257797493,14.2935,14.3293,29.2744,27.9537,22.32971,457.302,0.403806,1.0881,nan,nan,0.0,0.0,0.0,0.0,0.0,0.0,0.0,0.0,0.0,0.0,0.0,0.0,0.0,0.0,0.0,0,0.0,0.0,0.0,0.0,0.0,0.0,0,0,0,0,0,0,0,0,0,0,0,1,4,0,0,1,0,0,0,0
261041794,14.33367,14.3528,27.0481,25.9531,22.60444,481.389,0.396321,1.0893,nan,nan,0.0,0.0,0.0,0.0,0.0,0.0,0.0,0.0,0.0,0.0,0.0,0.0,0.0,0.0,0.0,0,0.0,0.0,0.0,0.0,0.0,0.0,0,0,0,0,0,0,0,0,0,0,0,1,4,0,0,1,0,0,0,0
264588150,14.3179,14.3138,27.3956,27.9307,22.9329,508.45,0.396532,1.08927,nan,nan,0.0,0.0,0.0,0.0,0.0,0.0,0.0,0.0,0.0,0.0,0.0,0.0,0.0,0.0,0.0,0,0.0,0.0,0.0,0.0,0.0,0.0,0,0,0,0,0,0,0,0,0,0,0,1,4,0,0,1,0,0,0,0
267833336,14.328,14.3279,26.7406,26.6592,23.17869,532.6853,0.39139,1.0901,nan,nan,0.0,0.0,0.0,0.0,0.0,0.0,0.0,0.0,0.0,0.0,0.0,0.0,0.0,0.0,0.0,0,0.0,0.0,0.0,0.0,0.0,0.0,0,0,0,0,0,0,0,0,0,0,0,1,4,0,0,1,0,0,0,0
270976524,14.3257,14.327,26.83625,26.8299,23.3846,555.9161,0.3925658,1.08991,nan,nan,0.0,0.0,0.0,0.0,0.0,0.0,0.0,0.0,0.0,0.0,0.0,0.0,0.0,0.0,0.0,0,0.0,0.0,0.0,0.0,0.0,0.0,0,0,0,0,0,0,0,0,0,0,0,1,4,0,0,1,0,0,0,0
274421503,14.34147,14.3491,26.13875,25.7635,23.52945,580.3871,0.392875,1.08986,nan,nan,0.0,0.0,0.0,0.0,0.0,0.0,0.0,0.0,0.0,0.0,0.0,0.0,0.0,0.0,0.0,0,0.0,0.0,0.0,0.0,0.0,0.0,0,0,0,0,0,0,0,0,0,0,0,1,4,0,0,1,0,0,0,0
277663159,14.3452,14.3495,25.8256,25.6975,23.6615,603.4867,0.392456,1.08993,nan,nan,0.0,0.0,0.0,0.0,0.0,0.0,0.0,0.0,0.0,0.0,0.0,0.0,0.0,0.0,0.0,0,0.0,0.0,0.0,0.0,0.0,0.0,0,0,0,0,0,0,0,0,0,0,0,1,4,0,0,1,0,0,0,0
281009673,14.31378,14.3275,27.2694,27.035,23.81191,627.6992,0.394635,1.089574,nan,nan,0.0,0.0,0.0,0.0,0.0,0.0,0.0,0.0,0.0,0.0,0.0,0.0,0.0,0.0,0.0,0,0.0,0.0,0.0,0.0,0.0,0.0,0,0,0,0,0,0,0,0,0,0,0,1,4,0,0,1,0,0,0,0
284455647,14.3428,14.3091,25.4375,27.21106,24.0115,653.3413,0.38786,1.09067,nan,nan,0.0,0.0,0.0,0.0,0.0,0.0,0.0,0.0,0.0,0.0,0.0,0.0,0.0,0.0,0.0,0,0.0,0.0,0.0,0.0,0.0,0.0,0,0,0,0,0,0,0,0,0,0,0,1,4,0,0,1,0,0,0,0
287798513,14.2763,14.2947,28.5969,28.1161,24.2229,678.794,0.389553,1.09039,nan,nan,0.0,0.0,0.0,0.0,0.0,0.0,0.0,0.0,0.0,0.0,0.0,0.0,0.0,0.0,0.0,0,0.0,0.0,0.0,0.0,0.0,0.0,0,0,0,0,0,0,0,0,0,0,0,1,4,0,0,1,0,0,0,0
291040023,14.2613,14.313,29.96,26.3803,24.4001,703.237,0.382097,1.0916,nan,nan,0.0,0.0,0.0,0.0,0.0,0.0,0.0,0.0,0.0,0.0,0.0,0.0,0.0,0.0,0.0,0,0.0,0.0,0.0,0.0,0.0,0.0,0,0,0,0,0,0,0,0,0,0,0,1,4,0,0,1,0,0,0,0
294383848,14.422,14.3135,20.14625,26.2694,24.5554,727.876,0.381309,1.09173,nan,nan,0.0,0.0,0.0,0.0,0.0,0.0,0.0,0.0,0.0,0.0,0.0,0.0,0.0,0.0,0.0,0,0.0,0.0,0.0,0.0,0.0,0.0,0,0,0,0,0,0,0,0,0,0,0,1,4,0,0,1,0,0,0,0
298463810,14.2617,14.3033,28.9619,25.9956,24.8021,759.605,0.374166,1.092884,nan,nan,0.0,0.0,0.0,0.0,0.0,0.0,0.0,0.0,0.0,0.0,0.0,0.0,0.0,0.0,0.0,0,0.0,0.0,0.0,0.0,0.0,0.0,0,0,0,0,0,0,0,0,0,0,0,1,4,0,0,1,0,0,0,0
301650207,14.39802,14.35366,22.0569,23.34,24.8275,781.7509,0.372936,1.09308,nan,nan,0.0,0.0,0.0,0.0,0.0,0.0,0.0,0.0,0.0,0.0,0.0,0.0,0.0,0.0,0.0,0,0.0,0.0,0.0,0.0,0.0,0.0,0,0,0,0,0,0,0,0,0,0,0,1,4,0,0,1,0,0,0,0
305042698,14.32743,14.3468,26.1019,25.4014,24.7898,804.6896,0.3885618,1.090554,nan,nan,0.0,0.0,0.0,0.0,0.0,0.0,0.0,0.0,0.0,0.0,0.0,0.0,0.0,0.0,0.0,0,0.0,0.0,0.0,0.0,0.0,0.0,0,0,0,0,0,0,0,0,0,0,0,1,4,0,0,1,0,0,0,0
308435850,13.99983,14.2912,45.1575,29.5617,24.8615,829.643,0.401116,1.08853,nan,nan,0.0,0.0,0.0,0.0,0.0,0.0,0.0,0.0,0.0,0.0,0.0,0.0,0.0,0.0,0.0,0,0.0,0.0,0.0,0.0,0.0,0.0,0,0,0,0,0,0,0,0,0,0,0,1,4,0,0,1,0,0,0,0
311587462,14.51814,14.3201,14.16,20.087,25.39129,858.4409,0.328096,1.10041,nan,nan,0.0,0.0,0.0,0.0,0.0,0.0,0.0,0.0,0.0,0.0,0.0,0.0,0.0,0.0,0.0,0,0.0,0.0,0.0,0.0,0.0,0.0,0,0,0,0,0,0,0,0,0,0,0,1,4,0,0,1,0,0,0,0
314830097,14.2761,14.2688,27.5475,28.2484,25.4898,883.083,0.37898,1.0921,nan,nan,0.0,0.0,0.0,0.0,0.0,0.0,0.0,0.0,0.0,0.0,0.0,0.0,0.0,0.0,0.0,0,0.0,0.0,0.0,0.0,0.0,0.0,0,0,0,0,0,0,0,0,0,0,0,1,4,0,0,1,0,0,0,0
318579981,14.2886,14.3088,27.2069,26.2009,25.527,910.1819,0.378564,1.09217,nan,nan,0.0,0.0,0.0,0.0,0.0,0.0,0.0,0.0,0.0,0.0,0.0,0.0,0.0,0.0,0.0,0,0.0,0.0,0.0,0.0,0.0,0.0,0,0,0,0,0,0,0,0,0,0,0,1,4,0,0,1,0,0,0,0
322027518,14.29974,14.295,26.3912,26.8189,25.6074,935.7782,0.3779078,1.09228,nan,nan,0.0,0.0,0.0,0.0,0.0,0.0,0.0,0.0,0.0,0.0,0.0,0.0,0.0,0.0,0.0,0,0.0,0.0,0.0,0.0,0.0,0.0,0,0,0,0,0,0,0,0,0,0,0,1,4,0,0,1,0,0,0,0
325409650,14.25177,14.2882,29.1194,27.43375,25.69501,961.2044,0.3804174,1.09187,nan,nan,0.0,0.0,0.0,0.0,0.0,0.0,0.0,0.0,0.0,0.0,0.0,0.0,0.0,0.0,0.0,0,0.0,0.0,0.0,0.0,0.0,0.0,0,0,0,0,0,0,0,0,0,0,0,1,4,0,0,1,0,0,0,0
328597921,14.26815,14.262,27.7025,28.1436,25.8611,986.3684,0.374924,1.092761,nan,nan,0.0,0.0,0.0,0.0,0.0,0.0,0.0,0.0,0.0,0.0,0.0,0.0,0.0,0.0,0.0,0,0.0,0.0,0.0,0.0,0.0,0.0,0,0,0,0,0,0,0,0,0,0,0,1,4,0,0,1,0,0,0,0
331991040,14.26269,14.2871,28.2825,26.888,25.9229,1011.68,0.3749557,1.09276,nan,nan,0.0,0.0,0.0,0.0,0.0,0.0,0.0,0.0,0.0,0.0,0.0,0.0,0.0,0.0,0.0,0,0.0,0.0,0.0,0.0,0.0,0.0,0,0,0,0,0,0,0,0,0,0,0,1,4,0,0,1,0,0,0,0
335177092,14.3561,14.3081,23.10875,25.7627,25.91981,1034.43,0.374265,1.09287,nan,nan,0.0,0.0,0.0,0.0,0.0,0.0,0.0,0.0,0.0,0.0,0.0,0.0,0.0,0.0,0.0,0,0.0,0.0,0.0,0.0,0.0,0.0,0,0,0,0,0,0,0,0,0,0,0,1,4,0,0,1,0,0,0,0
338570206,14.7202,14.4799,2.83875,12.0341,25.6784,1054.81,0.327547,1.1005,nan,nan,0.0,0.0,0.0,0.0,0.0,0.0,0.0,0.0,0.0,0.0,0.0,0.0,0.0,0.0,0.0,0,0.0,0.0,0.0,0.0,0.0,0.0,0,0,0,0,0,0,0,0,0,0,0,1,4,0,0,1,0,0,0,0
342066207,14.8023,14.7353,2.77062,3.96169,24.4101,1061.017,0.370241,1.093521,nan,nan,0.0,0.0,0.0,0.0,0.0,0.0,0.0,0.0,0.0,0.0,0.0,0.0,0.0,0.0,0.0,0,0.0,0.0,0.0,0.0,0.0,0.0,0,0,0,0,0,0,0,0,0,0,0,1,4,0,0,1,0,0,0,0
345253337,14.82156,14.7821,4.26875,6.12963,23.2277,1065.21,0.4112149,1.08691,nan,nan,0.0,0.0,0.0,0.0,0.0,0.0,0.0,0.0,0.0,0.0,0.0,0.0,0.0,0.0,0.0,0,0.0,0.0,0.0,0.0,0.0,0.0,0,0,0,0,0,0,0,0,0,0,0,1,4,0,0,1,0,0,0,0
348852083,14.87343,14.8503,3.13875,3.38751,21.97684,1069.91,0.417285,1.08593,nan,nan,0.0,0.0,0.0,0.0,0.0,0.0,0.0,0.0,0.0,0.0,0.0,0.0,0.0,0.0,0.0,0,0.0,0.0,0.0,0.0,0.0,0.0,0,0,0,0,0,0,0,0,0,0,0,1,4,0,0,1,0,0,0,0
352245023,14.90034,14.8898,3.131875,3.35677,20.77946,1072.94,0.434985,1.08311,nan,nan,0.0,0.0,0.0,0.0,0.0,0.0,0.0,0.0,0.0,0.0,0.0,0.0,0.0,0.0,0.0,0,0.0,0.0,0.0,0.0,0.0,0.0,0,0,0,0,0,0,0,0,0,0,0,1,4,0,0,1,0,0,0,0
355638147,14.9604,14.9423,1.02,1.18294,19.6055,1075.14,0.4390927,1.08245,nan,nan,0.0,0.0,0.0,0.0,0.0,0.0,0.0,0.0,0.0,0.0,0.0,0.0,0.0,0.0,0.0,0,0.0,0.0,0.0,0.0,0.0,0.0,0,0,0,0,0,0,0,0,0,0,0,1,4,0,0,1,0,0,0,0
359237973,14.98068,14.9756,1.156875,1.11266,18.3516,1076.18,0.453572,1.08015,nan,nan,0.0,0.0,0.0,0.0,0.0,0.0,0.0,0.0,0.0,0.0,0.0,0.0,0.0,0.0,0.0,0,0.0,0.0,0.0,0.0,0.0,0.0,0,0,0,0,0,0,0,0,0,0,0,1,4,0,0,1,0,0,0,0
360059391,14.9836,14.9793,1.1775,1.15417,18.3516,1076.45,0.455618,1.07983,nan,nan,0.0,0.0,0.0,0.0,0.0,0.0,0.0,0.0,0.0,0.0,0.0,0.0,0.0,0.0,0.0,0,0.0,0.0,0.0,0.0,0.0,0.0,0,0,0,0,0,0,0,0,0,0,0,1,4,0,0,1,0,0,0,0